Folder: Stability-Setup/data/_Old/Sept 9 MPPT 8 Pixel test/2022.09.09 - Batch#17_MPPTTEST/2022-09-09 -- Batch12_MPPTTEST Charts

Note: README.md
# Stability Measurement System

A Python GUI application for managing long-term device stability trials, real-time data collection, Arduino control, and visualization results.

**Installation and Arduino Firmware Flashing steps are required for completely functionality.**

---

## Installation

### 1. Using the Precompiled `.exe` (Recommended for End Users)

- Download the latest `StabilitySetup.exe` from the release folder.
- Double-click to run. No Python or additional installation is required.
- If Windows Defender blocks it, click **"More Info" → "Run anyway"**.

### 2. From Source (for Developers)

#### Requirements:
- Python 3.9–3.11 (miniconda recommended)
- Windows OS (tested on Windows 10/11)
- Arduino devices connected via USB

#### Setup Steps:

```bash
# Clone the repo
git clone https://github.com/your-org/stability-setup.git
cd stability-setup

# Create and activate a Conda environment
conda create -n stabilitySetup python=3.10
conda activate stabilitySetup

# Install dependencies
pip install -r requirements.txt

# Run the app
python app.py

```

## Arduino Firmware Flashing

### Installing Arduino CLI

The flash script requires Arduino CLI to be installed:

1. Download Arduino CLI from [arduino.cc/cli](https://arduino.cc/cli)
2. Add it to your system PATH
3. Initialize the CLI and install required board packages:

```bash
# Initialize Arduino CLI
arduino-cli config init

# Install required board packages
arduino-cli core install arduino:avr        # For Nano/Uno/Mega
arduino-cli core install esp32:esp32        # For ESP32 boards

# Install required libraries
arduino-cli lib install "Adafruit INA219"
arduino-cli lib install "Adafruit MCP4725"
```

### Using flash.py

The `flash.py` script allows you to easily compile and upload the Arduino firmware to multiple boards simultaneously. It now includes enhanced device detection capabilities to help identify and add support for new board types.

```bash
# Navigate to the Arduino firmware directory
cd Stability-Setup_Arduino

# Flash Arduino Nano boards (default)
python flash.py

# Flash other supported board types
python flash.py --board uno
python flash.py --board mega
python flash.py --board esp32-s3

# Show detailed information about all connected devices
# (useful for identifying new board types)
python flash.py --list-devices
```

### Adding Support for New Board Types

The `flash.py` script includes a helper function to easily identify and add support for new board types.

#### Step 1: Identify Your Board

First, connect your new board and run the device detection command:

```bash
python flash.py --list-devices
```

This will show detailed information about all connected serial devices, including:
- Device path (e.g., COM3, /dev/ttyUSB0)
- Description (most important for identification)
- Manufacturer, Product, Vendor/Product IDs
- Hardware ID and other technical details

If you 

File: 2022-09-09 -- Batch12_MPPTTEST_Log.csv
Batch,Device,Pixel,Variable,User,Cell Stack,Architecture,Scan number,Pin[mW/cm2],Voc[V] Rv,Jsc[mA/cm2] Rv,FF[%] Rv,PCE[%] Rv,Voc[V] Fw,Jsc[mA/cm2] Fw,FF[%] Fw,PCE[%] Fw,Time_MPP [s],Stabilized_MPP [%],Preconditioning Protocol,Sweep Speed,Measurement Start Date
2022-09-09 -- Batch12_MPPTTEST,SK17,p1,MPPTTEST,andrew,Glass | FTO | TiO2-c | TiO2-mp | Cs0.05FA0.79MA0.16PbI2.49Br0.51 | spiro-OMeTAD | Au,nip,0,100.0,1.07,21.13,70.35,15.91,1.07,19.87,56.39,11.99,118.816,12.413,False,50.0,2022-09-09 11:00:00
2022-09-09 -- Batch12_MPPTTEST,SK17,p2,MPPTTEST,andrew,Glass | FTO | TiO2-c | TiO2-mp | Cs0.05FA0.79MA0.16PbI2.49Br0.51 | spiro-OMeTAD | Au,nip,0,100.0,1.12,19.76,64.59,14.3,1.07,18.98,58.39,11.86,118.816,12.1706,False,50.0,2022-09-09 11:00:00
2022-09-09 -- Batch12_MPPTTEST,SK17,p3,MPPTTEST,andrew,Glass | FTO | TiO2-c | TiO2-mp | Cs0.05FA0.79MA0.16PbI2.49Br0.51 | spiro-OMeTAD | Au,nip,0,100.0,1.06,20.65,68.73,15.04,1.07,19.87,59.08,12.56,118.816,12.7077,False,50.0,2022-09-09 11:00:00
2022-09-09 -- Batch12_MPPTTEST,SK17,p4,MPPTTEST,andrew,Glass | FTO | TiO2-c | TiO2-mp | Cs0.05FA0.79MA0.16PbI2.49Br0.51 | spiro-OMeTAD | Au,nip,0,100.0,1.11,19.56,65.54,14.23,1.07,18.92,58.48,11.84,118.816,12.3919,False,50.0,2022-09-09 11:00:00
2022-09-09 -- Batch12_MPPTTEST,SK17,p5,MPPTTEST,andrew,Glass | FTO | TiO2-c | TiO2-mp | Cs0.05FA0.79MA0.16PbI2.49Br0.51 | spiro-OMeTAD | Au,nip,0,100.0,1.06,18.81,68.55,13.67,1.07,18.14,57.43,11.15,118.816,11.5735,False,50.0,2022-09-09 11:00:00
2022-09-09 -- Batch12_MPPTTEST,SK17,p6,MPPTTEST,andrew,Glass | FTO | TiO2-c | TiO2-mp | Cs0.05FA0.79MA0.16PbI2.49Br0.51 | spiro-OMeTAD | Au,nip,0,100.0,1.12,19.15,64.39,13.81,1.07,18.58,57.64,11.46,118.816,11.9871,False,50.0,2022-09-09 11:00:00
2022-09-09 -- Batch12_MPPTTEST,SK17,p7,MPPTTEST,andrew,Glass | FTO | TiO2-c | TiO2-mp | Cs0.05FA0.79MA0.16PbI2.49Br0.51 | spiro-OMeTAD | Au,nip,0,100.0,1.06,20.2,68.22,14.61,1.07,19.46,57.51,11.97,118.816,12.504,False,50.0,2022-09-09 11:00:00
2022-09-09 -- Batch12_MPPTTEST,SK17,p8,MPPTTEST,andrew,Glass | FTO | TiO2-c | TiO2-mp | Cs0.05FA0.79MA0.16PbI2.49Br0.51 | spiro-OMeTAD | Au,nip,0,100.0,1.12,19.21,64.36,13.85,1.07,18.45,56.77,11.21,118.816,11.7966,False,50.0,2022-09-09 11:00:00