Folder: Stability-Setup/data/_Old/2023-10-27 -- ind_test

Note: data/_Old/2023-10-27 -- ind_test/2023-10-27 -- ind_test_Log.txt
Device	Pixel	Sweep Direction	Scan number	Variable	Pin[mW/cm2]	Voc[V]	Jsc[mA/cm2]	FF[%]	PCE[%]	Sweep Speed	Measurement Start Date
sample2	p1	Rv	0	sample2	100.00	nan	nan	nan	nan	50.0	2023-10-27 05:00:00
sample2	p1	Fw	0	sample2	100.00	nan	nan	nan	nan	50.0	2023-10-27 05:00:00
sample2	p2	Rv	0	sample2	100.00	nan	nan	nan	nan	50.0	2023-10-27 05:00:00
sample2	p2	Fw	0	sample2	100.00	nan	nan	nan	nan	50.0	2023-10-27 05:00:00
sample2	p3	Rv	0	sample2	100.00	1.01	21.43	57.19	12.38	50.0	2023-10-27 05:00:00
sample2	p3	Fw	0	sample2	100.00	0.88	21.39	44.13	8.31	50.0	2023-10-27 05:00:00
sample2	p4	Rv	0	sample2	100.00	nan	nan	nan	nan	50.0	2023-10-27 05:00:00
sample2	p4	Fw	0	sample2	100.00	nan	nan	nan	nan	50.0	2023-10-27 05:00:00
sample2	p5	Rv	0	sample2	100.00	nan	nan	nan	nan	50.0	2023-10-27 05:00:00
sample2	p5	Fw	0	sample2	100.00	nan	nan	nan	nan	50.0	2023-10-27 05:00:00
sample2	p6	Rv	0	sample2	100.00	nan	nan	nan	nan	50.0	2023-10-27 05:00:00
sample2	p6	Fw	0	sample2	100.00	nan	nan	nan	nan	50.0	2023-10-27 05:00:00
sample2	p7	Rv	0	sample2	100.00	0.97	11.74	14.46	1.65	50.0	2023-10-27 05:00:00
sample2	p7	Fw	0	sample2	100.00	1.02	10.25	11.5	1.2	50.0	2023-10-27 05:00:00
sample2	p8	Rv	0	sample2	100.00	1.02	21.08	58.81	12.64	50.0	2023-10-27 05:00:00
sample2	p8	Fw	0	sample2	100.00	0.88	21.06	46.59	8.63	50.0	2023-10-27 05:00:00
sample1	p1	Rv	0	sample1	100.00	0.72	21.75	40.42	6.33	50.0	2023-10-27 05:00:00
sample1	p1	Fw	0	sample1	100.00	0.7	21.71	45.02	6.84	50.0	2023-10-27 05:00:00
sample1	p2	Rv	0	sample1	100.00	1.08	20.73	63.53	14.22	50.0	2023-10-27 05:00:00
sample1	p2	Fw	0	sample1	100.00	1.03	20.77	63.75	13.64	50.0	2023-10-27 05:00:00
sample1	p3	Rv	0	sample1	100.00	1.0	21.85	51.29	11.21	50.0	2023-10-27 05:00:00
sample1	p3	Fw	0	sample1	100.00	0.97	21.81	51.27	10.85	50.0	2023-10-27 05:00:00
sample1	p4	Rv	0	sample1	100.00	1.05	20.8	63.07	13.78	50.0	2023-10-27 05:00:00
sample1	p4	Fw	0	sample1	100.00	1.03	20.83	62.14	13.33	50.0	2023-10-27 05:00:00
sample1	p5	Rv	0	sample1	100.00	0.88	21.65	42.35	8.07	50.0	2023-10-27 05:00:00
sample1	p5	Fw	0	sample1	100.00	0.88	21.72	40.87	7.81	50.0	2023-10-27 05:00:00
sample1	p6	Rv	0	sample1	100.00	1.08	20.72	55.07	12.32	50.0	2023-10-27 05:00:00
sample1	p6	Fw	0	sample1	100.00	1.03	20.75	56.75	12.13	50.0	2023-10-27 05:00:00
sample1	p7	Rv	0	sample1	100.00	1.03	22.09	61.92	14.09	50.0	2023-10-27 05:00:00
sample1	p7	Fw	0	sample1	100.00	1.01	22.07	59.27	13.21	50.0	2023-10-27 05:00:00
sample1	p8	Rv	0	sample1	100.00	1.07	20.53	62.61	13.75	50.0	2023-10-27 05:00:00
sample1	p8	Fw	0	sample1	100.00	1.03	20.54	62.08	13.13	50.0	2023-10-27 05:00:00

Note: README.md
# Stability Measurement System

A Python GUI application for managing long-term device stability trials, real-time data collection, Arduino control, and visualization results.

**Installation and Arduino Firmware Flashing steps are required for completely functionality.**

---

## Installation

### 1. Using the Precompiled `.exe` (Recommended for End Users)

- Download the latest `StabilitySetup.exe` from the release folder.
- Double-click to run. No Python or additional installation is required.
- If Windows Defender blocks it, click **"More Info" → "Run anyway"**.

### 2. From Source (for Developers)

#### Requirements:
- Python 3.9–3.11 (miniconda recommended)
- Windows OS (tested on Windows 10/11)
- Arduino devices connected via USB

#### Setup Steps:

```bash
# Clone the repo
git clone https://github.com/your-org/stability-setup.git
cd stability-setup

# Create and activate a Conda environment
conda create -n stabilitySetup python=3.10
conda activate stabilitySetup

# Install dependencies
pip install -r requirements.txt

# Run the app
python app.py

```

## Arduino Firmware Flashing

### Installing Arduino CLI

The flash script requires Arduino CLI to be installed:

1. Download Arduino CLI from [arduino.cc/cli](https://arduino.cc/cli)
2. Add it to your system PATH
3. Initialize the CLI and install required board packages:

```bash
# Initialize Arduino CLI
arduino-cli config init

# Install required board packages
arduino-cli core install arduino:avr        # For Nano/Uno/Mega
arduino-cli core install esp32:esp32        # For ESP32 boards

# Install required libraries
arduino-cli lib install "Adafruit INA219"
arduino-cli lib install "Adafruit MCP4725"
```

### Using flash.py

The `flash.py` script allows you to easily compile and upload the Arduino firmware to multiple boards simultaneously. It now includes enhanced device detection capabilities to help identify and add support for new board types.

```bash
# Navigate to the Arduino firmware directory
cd Stability-Setup_Arduino

# Flash Arduino Nano boards (default)
python flash.py

# Flash other supported board types
python flash.py --board uno
python flash.py --board mega
python flash.py --board esp32-s3

# Show detailed information about all connected devices
# (useful for identifying new board types)
python flash.py --list-devices
```

### Adding Support for New Board Types

The `flash.py` script includes a helper function to easily identify and add support for new board types.

#### Step 1: Identify Your Board

First, connect your new board and run the device detection command:

```bash
python flash.py --list-devices
```

This will show detailed information about all connected serial devices, including:
- Device path (e.g., COM3, /dev/ttyUSB0)
- Description (most important for identification)
- Manufacturer, Product, Vendor/Product IDs
- Hardware ID and other technical details

If you 

File: 2023-10-27 -- ind_test_Log.csv
Batch,Device,Pixel,Variable,User,Cell Stack,Architecture,Scan number,Pin[mW/cm2],Voc[V] Rv,Jsc[mA/cm2] Rv,FF[%] Rv,PCE[%] Rv,Voc[V] Fw,Jsc[mA/cm2] Fw,FF[%] Fw,PCE[%] Fw,Time_MPP [s],Stabilized_MPP [%],Preconditioning Protocol,Sweep Speed,Measurement Start Date
2023-10-27 -- ind_test,sample1,p1,sample1,andrew,Glass | ITO | 2PACz | Cs0.17FA0.83PbI3 | C60 | BCP | Ag,nip,0,100.0,0.72,21.75,40.42,6.33,0.7,21.71,45.02,6.84,59.1462,7.05077,False,50.0,2023-10-27 05:00:00
2023-10-27 -- ind_test,sample1,p2,sample1,andrew,Glass | ITO | 2PACz | Cs0.17FA0.83PbI3 | C60 | BCP | Ag,nip,0,100.0,1.08,20.73,63.53,14.22,1.03,20.77,63.75,13.64,59.1462,14.2938,False,50.0,2023-10-27 05:00:00
2023-10-27 -- ind_test,sample1,p3,sample1,andrew,Glass | ITO | 2PACz | Cs0.17FA0.83PbI3 | C60 | BCP | Ag,nip,0,100.0,1.0,21.85,51.29,11.21,0.97,21.81,51.27,10.85,59.1462,11.7904,False,50.0,2023-10-27 05:00:00
2023-10-27 -- ind_test,sample1,p4,sample1,andrew,Glass | ITO | 2PACz | Cs0.17FA0.83PbI3 | C60 | BCP | Ag,nip,0,100.0,1.05,20.8,63.07,13.78,1.03,20.83,62.14,13.33,59.1462,13.6681,False,50.0,2023-10-27 05:00:00
2023-10-27 -- ind_test,sample1,p5,sample1,andrew,Glass | ITO | 2PACz | Cs0.17FA0.83PbI3 | C60 | BCP | Ag,nip,0,100.0,0.88,21.65,42.35,8.07,0.88,21.72,40.87,7.81,59.1462,8.39902,False,50.0,2023-10-27 05:00:00
2023-10-27 -- ind_test,sample1,p6,sample1,andrew,Glass | ITO | 2PACz | Cs0.17FA0.83PbI3 | C60 | BCP | Ag,nip,0,100.0,1.08,20.72,55.07,12.32,1.03,20.75,56.75,12.13,59.1462,9.00374,False,50.0,2023-10-27 05:00:00
2023-10-27 -- ind_test,sample1,p7,sample1,andrew,Glass | ITO | 2PACz | Cs0.17FA0.83PbI3 | C60 | BCP | Ag,nip,0,100.0,1.03,22.09,61.92,14.09,1.01,22.07,59.27,13.21,59.1462,13.9766,False,50.0,2023-10-27 05:00:00
2023-10-27 -- ind_test,sample1,p8,sample1,andrew,Glass | ITO | 2PACz | Cs0.17FA0.83PbI3 | C60 | BCP | Ag,nip,0,100.0,1.07,20.53,62.61,13.75,1.03,20.54,62.08,13.13,59.1462,13.8603,False,50.0,2023-10-27 05:00:00
2023-10-27 -- ind_test,sample2,p1,sample2,andrew,Glass | ITO | 2PACz | Cs0.17FA0.83PbI3 | C60 | BCP | Ag,nip,0,100.0,,,,,,,,,59.1462,0.0,False,50.0,2023-10-27 05:00:00
2023-10-27 -- ind_test,sample2,p2,sample2,andrew,Glass | ITO | 2PACz | Cs0.17FA0.83PbI3 | C60 | BCP | Ag,nip,0,100.0,,,,,,,,,59.1462,0.10091,False,50.0,2023-10-27 05:00:00
2023-10-27 -- ind_test,sample2,p3,sample2,andrew,Glass | ITO | 2PACz | Cs0.17FA0.83PbI3 | C60 | BCP | Ag,nip,0,100.0,1.01,21.43,57.19,12.38,0.88,21.39,44.13,8.31,59.1462,10.1969,False,50.0,2023-10-27 05:00:00
2023-10-27 -- ind_test,sample2,p4,sample2,andrew,Glass | ITO | 2PACz | Cs0.17FA0.83PbI3 | C60 | BCP | Ag,nip,0,100.0,,,,,,,,,59.1462,0.0792199,False,50.0,2023-10-27 05:00:00
2023-10-27 -- ind_test,sample2,p5,sample2,andrew,Glass | ITO | 2PACz | Cs0.17FA0.83PbI3 | C60 | BCP | Ag,nip,0,100.0,,,,,,,,,59.1462,0.000167327,False,50.0,2023-10-27 05:00:00
2023-10-27 -- ind_test,sample2,p6,sample2,andrew,Glass | ITO | 2PACz | Cs0.17FA0.83PbI3 | C60 | BCP | Ag,nip,0,100.0,,,,,,,,,59.1462,0.0,False,50.0,2023-10-27 05:00:00
2023-10-27 -- ind_test,sample2,p7,sample2,andrew,Glass | ITO | 2PACz | Cs0.17FA0.83PbI3 | C60 | BCP | Ag,nip,0,100.0,0.97,11.74,14.46,1.65,1.02,10.25,11.5,1.2,59.1462,1.41109,False,50.0,2023-10-27 05:00:00
2023-10-27 -- ind_test,sample2,p8,sample2,andrew,Glass | ITO | 2PACz | Cs0.17FA0.83PbI3 | C60 | BCP | Ag,nip,0,100.0,1.02,21.08,58.81,12.64,0.88,21.06,46.59,8.63,59.1462,10.4019,False,50.0,2023-10-27 05:00:00